File: Cu10-20_PAA50_ISS-ISS_twin.nor
# XDI/1.0 Demeter/0.9.26
# Demeter.output_filetype: multicolumn normalized mu(E)
# Element.symbol: Cu
# Element.edge: K
# Column.1: energy eV
# Column.2: Cu-ISS_twin_b17_A3_Cu10_PAA50_merge
# Column.3: Cu-ISS_twin_b17_B4_Cu20_PAA50_merge
# Column.4: Cu-C5_ISS_batch21_A3_Cu10_PAA50_merge
# Column.5: Cu-C7_ISS_batch22_B4_Cu20_PAA50_merge
# Column.6: CuO_standard.001
# Column.7: Cufoil.003
# Column.8: Cu2O_standard.001
# Column.9: Cu(OH)2_standard.001
# Column.10: CuF2_standard.001
#------------------------
#  energy  Cu-ISS_twin_b17_A3_Cu10_PAA50_merge  Cu-ISS_twin_b17_B4_Cu20_PAA50_merge  Cu-C5_ISS_batch21_A3_Cu10_PAA50_merge  Cu-C7_ISS_batch22_B4_Cu20_PAA50_merge  CuO_standard.001  Cufoil.003  Cu2O_standard.001  Cu(OH)2_standard.001  CuF2_standard.001
  8778.06      -0.000149064   0.000410856   0.000525511   0.00041331   0.00861674   0.0050261   0.00455092   0.0099312   0.00503947
  8788.08       0.000192401   0.000218901  -0.000607803   0.000239166   0.00702022   0.00458397   0.00390463   0.00810654   0.00438967
  8798.04       0.000519527   0.000297993  -0.000721007   0.000302263   0.00616041   0.00414433   0.00327172   0.00679183   0.00372698
  8808.01      -0.000162213   0.000388092   0.000405572  -4.95981e-05   0.0052513   0.00370425   0.00258001   0.00523757   0.00324354
  8817.99      -0.000416401  -0.000120974   0.000787497  -0.000280812   0.003982   0.00326359   0.00222727   0.00437003   0.0025942
  8828.02       4.78961e-05  -0.000173479  -0.000119315  -0.000449953   0.00301231   0.00282087   0.00158172   0.00347484   0.00194127
  8837.99       0.000101375  -0.000276742   0.000307974  -0.000222757   0.00212708   0.00238083   0.00114733   0.00226659   0.00125718
  8848.03       6.50295e-05  -0.000119724  -0.000572668  -6.00251e-05   0.00102249   0.00193812   0.000691063   0.00122726   0.000899581
  8858.02      -6.37142e-05  -0.000227634  -0.000269162  -0.000207689   0.000328705   0.00149692   0.000234951   0.000374229   0.000449064
  8868.03      -0.000235629  -0.000302193   0.000278178  -0.000161646   0.000105449   0.00105499  -0.000137654  -0.000245934  -7.68712e-05
  8878.02       2.60059e-05  -0.000473846  -0.000424116  -0.000236098  -0.000954789   0.000614131  -0.000534423  -0.000758153  -0.000354746
  8888.03      -0.000142649  -8.60737e-05   0.000607963  -0.000159395  -0.00106651   0.000183188  -0.000700166  -0.00127144  -0.000825511
  8898.03      -0.000312619   1.00949e-05  -0.00017318  -8.85774e-05  -0.00118449  -0.00017812  -0.000888289  -0.00138664  -0.00100734
  8908.03       0.000114423   0.000140762  -0.000527788   0.000424142  -0.00181019  -0.000468976  -0.000980718  -0.00169495  -0.00129072
  8918.03       0.000415631   0.000724981   0.000500886   0.000554833  -0.00180519  -0.000577231  -0.00115002  -0.00230228  -0.00139618
  8928.03       0.000755757   0.000922085   0.000674185   0.000794261  -0.00137164  -0.00061887  -0.000832934  -0.0019111  -0.0011635
  8938.02       0.00145299   0.00217455   0.00330223   0.00170902  -0.00124816  -0.00044331  -0.000427484  -0.000853677  -0.000882175
  8948.02       0.00354977   0.00342863   0.00392865   0.00322723  -0.0003184   0.000272559   0.000663309   0.000227642  -4.35961e-05
  8950       0.00378801   0.00370561   0.00354109   0.00341782   5.81742e-05   0.000488929   0.000865509   0.00041681   0.000278866
  8951.99       0.00378144   0.00419977   0.00377012   0.00381535   0.000275121   0.000850512   0.00131318   0.000489166   0.000364351
  8953.99       0.00405438   0.00455795   0.00458934   0.00441907   0.000621232   0.00119588   0.00183409   0.00084682   0.000771353
  8955.99       0.00510833   0.00552399   0.00544688   0.005028   0.00102874   0.00164736   0.00234196   0.00194188   0.00116811
  8957.99       0.00546667   0.00598995   0.00565825   0.00586849   0.00170456   0.00222573   0.00301642   0.00192891   0.00156027
  8959.99       0.00633723   0.00675252   0.00632632   0.00669298   0.0019214   0.0028817   0.00382059   0.00254727   0.00218825
  8962       0.00649093   0.00742274   0.00718911   0.00753055   0.00298704   0.00373619   0.00488921   0.00345875   0.00280287
  8964.01       0.00762405   0.00854702   0.00897643   0.00834594   0.00311625   0.00480018   0.00611237   0.00436684   0.00354823
  8966       0.00865453   0.00994799   0.0108689   0.0102035   0.00466554   0.00628551   0.00754959   0.00502477   0.00438485
  8968       0.0109219   0.0117151   0.0119469   0.0117575   0.0059988   0.00823096   0.0098427   0.00683339   0.0056937
  8968.48       0.0108867   0.0120999   0.0125785   0.0122686   0.00627459   0.00887533   0.0104388   0.00693113   0.00584287
  8968.98       0.0116053   0.0122451   0.0115534   0.012907   0.00685374   0.00951492   0.0110413   0.0070089   0.00643744
  8969.48       0.0112134   0.0130665   0.0126519   0.0135364   0.0074701   0.0102673   0.0118113   0.00711039   0.00677881
  8969.99       0.0121186   0.0139036   0.0128633   0.0146593   0.00792403   0.0110431   0.0126181   0.0079051   0.00718133
  8970.48       0.0128379   0.0146637   0.0149745   0.0153274   0.0080574   0.0119741   0.0135819   0.00815973   0.00767353
  8970.99       0.0137431   0.0152323   0.0154346   0.0156954   0.0084426   0.0129743   0.0145839   0.00938962   0.00802734
  8971.48       0.0143128   0.016499   0.0159739   0.0168893   0.00950889   0.0141436   0.0157938   0.00948004   0.00864843
  8971.99       0.0149978   0.0169834   0.0175799   0.0181193   0.0100212   0.0154352   0.0169628   0.00995786   0.00929094
  8972.49       0.015781   0.0178598   0.0185068   0.019383   0.0107477   0.0169474   0.0185842   0.0103955   0.00989411
  8972.99       0.0168057   0.0185595   0.0195597   0.0206549   0.011406   0.0187141   0.0203498   0.0110584   0.0104254
  8973.5       0.0180427   0.0196688   0.0196775   0.0218927   0.0125149   0.0207895   0.0222192   0.0122935   0.0112663
  8974.01       0.0197693   0.0212467   0.0213799   0.0239261   0.0137925   0.0232642   0.0244917   0.0133799   0.0124004
  8974.5       0.0208297   0.0235664   0.0234527   0.0262366   0.0152046   0.026285   0.0271938   0.0134723   0.0134524
  8975.01       0.0220349   0.0252677   0.0253568   0.0290505   0.0166708   0.0300534   0.0305763   0.0151593   0.0151963
  8975.51       0.0243996   0.0274067   0.029171   0.0325057   0.0185504   0.0350455   0.0347688   0.0166261   0.0178645
  8976.01       0.0279171   0.0319902   0.0331487   0.0368689   0.0212406   0.0413961   0.039693   0.0202036   0.0216365
  8976.5       0.0327601   0.0365285   0.0389286   0.0420565   0.0248923   0.0500789   0.0459929   0.0235956   0.02512
  8977       0.0366387   0.0426026   0.0459873   0.0492769   0.0292325   0.062573   0.0543159   0.0282651   0.0267902
  8977.5       0.0409279   0.0492419   0.0504529   0.0577355   0.0330887   0.0835428   0.0666071   0.0307045   0.0255185
  8978       0.0434316   0.0554844   0.0601311   0.068662   0.0344136   0.119498       0.0852777   0.0310458   0.0239645
  8978.5       0.0486449   0.0647493   0.0716481   0.0849013   0.0357578   0.179934       0.114939       0.030941   0.0233079
  8979.01       0.055101   0.0795947   0.0944741   0.114853       0.0390612   0.266523       0.166551       0.0327417   0.0242041
  8979.51       0.0688245   0.101315       0.128108       0.164472       0.0461098   0.360226       0.253205       0.0375189   0.0254747
  8980.01       0.0855364   0.131542       0.175339       0.234827       0.0550889   0.431212       0.375896       0.0423492   0.0276171
  8980.51       0.108841       0.170061       0.230027       0.316475       0.06657   0.472193       0.515445       0.050137   0.0302964
  8981       0.130565       0.207174       0.282676       0.380175       0.0811335   0.489969       0.603301       0.0609163   0.0336651
  8981.51       0.148703       0.232045       0.308598       0.410727       0.100681       0.490696       0.612427       0.0746852   0.0377377
  8982       0.15807       0.23757       0.315541       0.409289       0.130056       0.481761       0.565989       0.0937429   0.0429074
  8982.5       0.167158       0.240109       0.311054       0.399839       0.173284       0.470562       0.513239       0.122922       0.0494069
  8983.01       0.177904       0.245945       0.317097       0.39275       0.232702       0.465441       0.478211       0.164805       0.0573274
  8983.51       0.197699       0.259146       0.32773       0.39625       0.299156       0.470558       0.47042       0.215485       0.0672444
  8984.01       0.228422       0.285214       0.350913       0.412635       0.360828       0.485593       0.481369       0.270936       0.0805014
  8984.51       0.269204       0.321031       0.388935       0.441814       0.406416       0.506524       0.503924       0.321438       0.0988395
  8985       0.318851       0.365775       0.425157       0.474794       0.428155       0.528114       0.531095       0.362711       0.123749
  8985.5       0.371962       0.414798       0.469821       0.509886       0.433837       0.548206       0.55873       0.393192       0.158382
  8986       0.428361       0.465816       0.507758       0.544931       0.43127       0.567718       0.585024       0.41404       0.204872
  8986.5       0.480199       0.509216       0.546448       0.578579       0.431637       0.588473       0.611296       0.429587       0.262609
  8987.01       0.527044       0.552213       0.583885       0.610565       0.443646       0.612613       0.640191       0.44623       0.333051
  8987.51       0.568903       0.588622       0.619726       0.640862       0.471081       0.64093       0.671372       0.468917       0.413755
  8988.01       0.605283       0.623777       0.650264       0.676164       0.513796       0.67339       0.702372       0.501907       0.499225
  8988.52       0.641543       0.657213       0.686095       0.70896       0.568248       0.711684       0.734115       0.548628       0.593121
  8989.01       0.67692       0.692612       0.720928       0.741625       0.626911       0.752898       0.766266       0.601169       0.683024
  8989.5       0.715988       0.728692       0.761941       0.78024       0.690026       0.797984       0.802001       0.661888       0.765802
  8990       0.765089       0.777755       0.806973       0.823634       0.761369       0.844146       0.843019       0.729485       0.835799
  8990.5       0.824934       0.832129       0.870994       0.874502       0.838131       0.889205       0.88774       0.804357       0.891731
  8991       0.892037       0.895236       0.926823       0.926517       0.91414       0.933       0.935992       0.88467       0.942521
  8991.51       0.966836       0.963904       0.989089       0.982932       0.979421       0.974588       0.985734       0.959761       0.996317
  8992.01        1.04005        1.02887        1.03135        1.02945        1.02639        1.01134        1.02911        1.02333        1.05967
  8992.51        1.09898        1.08188        1.08292        1.06852        1.06078        1.04018        1.05902        1.07369        1.13023
  8993.01        1.15076        1.12909        1.12361        1.10115        1.0921        1.05918        1.07913        1.11595        1.20689
  8993.5        1.19445        1.16335        1.15392        1.12995        1.12151        1.06676        1.09311        1.149        1.27957
  8994        1.22695        1.19142        1.17781        1.1541        1.15159        1.06443        1.10421        1.17606        1.34284
  8994.51        1.25633        1.21809        1.19874        1.17188        1.18476        1.05389        1.1145        1.20267        1.39501
  8995.01        1.27644        1.23869        1.21808        1.18667        1.22206        1.03907        1.12158        1.23045        1.42688
  8995.51        1.29458        1.25045        1.23311        1.19893        1.26405        1.02203        1.12196        1.26469        1.44191
  8996.01        1.30492        1.2592        1.23433        1.20139        1.30366        1.00472        1.11324        1.29996        1.44232
  8996.52        1.31027        1.26537        1.2383        1.20254        1.32944       0.989187        1.09632        1.32817        1.43119
  8997.01        1.31062        1.26346        1.2341        1.19644        1.33684       0.976404        1.07436        1.3411        1.41182
  8997.5        1.30256        1.25757        1.2257        1.18465        1.32983       0.967195        1.0514        1.33836        1.38614
  8998        1.29652        1.24725        1.21647        1.17201        1.31379       0.961683        1.02862        1.32349        1.35514
  8998.5        1.28437        1.23877        1.19943        1.15662        1.29534       0.961137        1.00845        1.30088        1.32064
  8999        1.27327        1.22365        1.19059        1.1397        1.27488       0.966395       0.989566        1.27494        1.28466
  8999.51        1.25552        1.20655        1.16954        1.12486        1.25254       0.977785       0.97159        1.2463        1.24614
  9000.01        1.23372        1.18814        1.15526        1.11277        1.22585       0.994384       0.955899        1.21728        1.20778
  9000.51        1.20974        1.17102        1.14264        1.0966        1.19402        1.01492       0.943177        1.18584        1.17254
  9001.01        1.19057        1.14892        1.12239        1.08041        1.15857        1.03719       0.932812        1.15252        1.13988
  9001.51        1.16767        1.13104        1.10184        1.06579        1.12274        1.05862       0.925918        1.11729        1.11034
  9002        1.14385        1.10785        1.08353        1.05414        1.0923        1.07622       0.923384        1.097        1.08435
  9002.51        1.12188        1.09108        1.0719        1.03682        1.06211        1.08651       0.921211        1.07629        1.0578
  9003        1.09845        1.07269        1.05855        1.02881        1.04147        1.08779       0.924087        1.056        1.03181
  9004.01        1.058        1.03863        1.03145        1.01308        1.00513        1.06857       0.932939        1.01484       0.979068
  9005.01        1.0233        1.01053        1.01342       0.999044       0.975318        1.03648       0.944458       0.97367       0.926317
  9006.02       0.998203       0.990536        1.0013       0.990286       0.951594        1.00635       0.956232       0.949924       0.895425
  9007.08       0.98331       0.978889       0.991526       0.987429       0.938581       0.98358       0.970063       0.94835       0.890255
  9008.14       0.971818       0.969568       0.988335       0.986338       0.938313       0.964616       0.985799       0.946765       0.885049
  9009.22       0.96245       0.965094       0.983863       0.983676       0.945542       0.944978       0.999668       0.945148       0.879739
  9010.31       0.957683       0.960128       0.978561       0.980923       0.953115       0.931274        1.00623       0.942541       0.876753
  9011.43       0.947542       0.956344       0.972644       0.97913       0.956394       0.927856        1.00495       0.938242       0.87859
  9012.58       0.94058       0.94716       0.962865       0.974595       0.954523       0.932086        1.0014       0.933821       0.880478
  9013.73       0.940027       0.940773       0.956392       0.967358       0.949772       0.939627       0.999192       0.929412       0.882361
  9014.9       0.929903       0.932891       0.951319       0.96049       0.943351       0.950421       0.99412       0.921923       0.881285
  9016.1       0.917393       0.925793       0.94135       0.952396       0.935661       0.966227       0.980387       0.906389       0.872988
  9017.32       0.908579       0.916169       0.933572       0.940832       0.923882       0.987174       0.959123       0.890533       0.864519
  9018.54       0.904008       0.90847       0.922208       0.929282       0.905953        1.00881       0.938785       0.874673       0.856047
  9019.8       0.888489       0.896418       0.909338       0.920021       0.882561        1.03009       0.924242       0.859083       0.847546
  9021.06       0.880234       0.889397       0.900056       0.911509       0.857438        1.05089       0.91416       0.846184       0.839669
  9022.36       0.869246       0.881685       0.894609       0.90605       0.836502        1.07124       0.905416       0.832996       0.831615
  9023.67       0.869229       0.877668       0.891095       0.900135       0.821842        1.08732       0.898384       0.819734       0.823516
  9024.99       0.863292       0.87576       0.890671       0.896915       0.81202        1.0971       0.893685       0.808893       0.817827
  9026.35       0.868164       0.876683       0.889321       0.898244       0.807448        1.09657       0.890724       0.817348       0.831235
  9027.73       0.87391       0.879237       0.892244       0.899895       0.809778        1.08024       0.888985       0.825958       0.84489
  9029.1       0.880915       0.884532       0.898778       0.902078       0.820145        1.05998       0.888987       0.834506       0.858446
  9030.52       0.895626       0.897233       0.903201       0.908519       0.836986        1.03605       0.8918       0.844146       0.873016
  9031.94       0.906487       0.906065       0.917512       0.918735       0.857535        1.01551       0.898571       0.866144       0.893174
  9033.37       0.923132       0.92101       0.929019       0.927771       0.880236        1.00062       0.908474       0.888257       0.913438
  9034.83       0.937955       0.93654       0.943338       0.939842       0.904221       0.991299       0.919746       0.910867       0.934156
  9036.31       0.954624       0.951197       0.958336       0.954216       0.928899       0.988334       0.930961       0.933581       0.955031
  9037.8       0.968098       0.962672       0.974783       0.967574       0.95427       0.991695       0.941815       0.951951       0.966955
  9039.33       0.986276       0.97989       0.984717       0.97911       0.979242       0.998309       0.953619       0.970848       0.979175
  9040.86        1.00012       0.992178       0.99806       0.98987        1.00053        1.00589       0.966185       0.989664       0.991343
  9042.43        1.01039        1.00416        1.00756       0.998741        1.01681        1.01122       0.980388        1.00901        1.00385
  9044.01        1.02065        1.01184        1.01861        1.00745        1.02934        1.0104       0.992845        1.01756        1.00747
  9045.6        1.02831        1.0223        1.02644        1.01506        1.04189        1.00938        1.00135        1.02587        1.01075
  9047.21        1.03476        1.02438        1.0333        1.02186        1.05346        1.00835        1.00284        1.03421        1.01405
  9048.86        1.03914        1.03204        1.0368        1.02721        1.06059        1.0073       0.998512        1.04282        1.01744
  9050.5        1.03972        1.03588        1.03454        1.02833        1.06245        1.00625       0.991384        1.04117        1.01797
  9052.18        1.04207        1.03199        1.03905        1.02771        1.0584        1.00517       0.986577        1.03873        1.01828
  9053.87        1.03995        1.03127        1.03654        1.02843        1.04995        1.00409       0.985538        1.03627        1.01859
  9055.54        1.04467        1.03257        1.03285        1.02748        1.04087        1.00303       0.985864        1.03384        1.0189
  9057.27        1.03985        1.03467        1.03119        1.02894        1.03224        1.00192       0.9861        1.02877        1.01667
  9059.02        1.03758        1.02857        1.03083        1.02687        1.02363        1.0008       0.984848        1.02323        1.01402
  9060.79        1.03652        1.0286        1.03143        1.02532        1.01472       0.999678       0.983202        1.01765        1.01134
  9062.58        1.03092        1.02704        1.03021        1.0236        1.00692       0.998533       0.98219        1.01197        1.00862
  9064.39        1.02898        1.02429        1.02662        1.01937        1.00033       0.997377       0.983492        1.0065        1.00758
  9066.22        1.02167        1.01764        1.02268        1.0175       0.995048       0.996206       0.986609        1.00099        1.00683
  9068.06        1.01419        1.0119        1.01839        1.01621       0.990062       0.995031       0.991118       0.995478        1.00608
  9069.91        1.01175        1.01002        1.01528        1.01688       0.984788       0.993848       0.996191       0.989917        1.00533
  9071.8        1.00685        1.00597        1.01573        1.01451       0.980141       0.992645        1.0009       0.985625        1.00281
  9073.7       0.999597        1.00141        1.01169        1.01259       0.976793       0.991431        1.00503       0.98162       0.999325
  9075.62       0.996137       0.995605        1.00404        1.00898       0.973884       0.990205        1.00835       0.977575       0.995811
  9077.56       0.991958       0.992779        1.00396        1.00774       0.971791       0.988964        1.01087       0.973484       0.992255
  9079.52       0.986687       0.987982        1.00354        1.00565       0.970799       0.98771        1.01269       0.970936       0.986496
  9081.49       0.9852       0.986966       0.99883        1.00049       0.969929       0.98645        1.01387       0.968843       0.980113
  9083.48       0.979002       0.98092       0.993821       0.997937       0.968523       0.985179        1.0136       0.96673       0.973671
  9085.49       0.978616       0.981642       0.990441       0.996001       0.966603       0.983898        1.01108       0.964601       0.967179
  9087.53       0.97526       0.978586       0.99129       0.99324       0.965469       0.982591        1.0057       0.963997       0.964316
  9089.59       0.975483       0.976674       0.985518       0.991345       0.965214       0.981277       0.998056       0.963923       0.962634
  9091.65       0.971357       0.972907       0.983518       0.990716       0.965402       0.97996       0.989512       0.963849       0.960947
  9093.75       0.970419       0.972585       0.980515       0.985708       0.965184       0.978619       0.980937       0.963774       0.95923
  9095.88       0.971675       0.972258       0.981154       0.984719       0.96428       0.977262       0.97285       0.964642       0.960827
  9097.99       0.968416       0.97283       0.98386       0.982156       0.964225       0.975912       0.966017       0.965869       0.963634
  9100.13       0.971442       0.971721       0.985072       0.983614       0.964689       0.974544       0.96093       0.967112       0.966475
  9102.31       0.976859       0.975533       0.98724       0.981882       0.965052       0.973153       0.957672       0.968375       0.969365
  9104.48       0.976879       0.97707       0.984346       0.981721       0.965593       0.971764       0.956774       0.96977       0.973353
  9106.69       0.981414       0.982086       0.988852       0.984956       0.967002       0.970354       0.958037       0.971247       0.977881
  9108.92       0.983586       0.983039       0.990225       0.987432       0.967854       0.968929       0.961894       0.972739       0.982455
  9111.16       0.9863       0.985621       0.992683       0.98889       0.967799       0.967496       0.9677       0.974239       0.987054
  9113.42       0.990605       0.986879       0.997913       0.994585       0.968037       0.966056       0.974101       0.976894       0.991622
  9115.71       0.995127       0.99131       0.998233       0.994427       0.969706       0.964595       0.979758       0.980154       0.996231
  9118       0.992587       0.99559       0.994855       0.995995       0.972847       0.96313       0.983564       0.98342        1.00085
  9120.33       0.997961       0.994482       0.998679       0.998407       0.977608       0.961645       0.986232       0.986735        1.00554
  9122.67       0.998299       0.99855        1.01057       0.999561       0.98404       0.960144       0.988305       0.99198        1.0083
  9125.01        1.00354        1.0017        1.00844        1.0033       0.991909       0.958652       0.990279       0.998178        1.01006
  9127.4        1.00409        1.00388        1.0066        1.00645        1.00007       0.957128       0.992207        1.00451        1.01186
  9129.79        1.00711        1.00938        1.00877        1.00973        1.00713       0.9556       0.993985        1.01086        1.01366
  9132.2        1.01104        1.01056        1.01716        1.00952        1.01276       0.954057       0.99595        1.01495        1.01553
  9134.63        1.01239        1.01171        1.01964        1.01176        1.01666       0.952505       0.998324        1.01774        1.01745
  9137.09        1.01348        1.016        1.02181        1.01562        1.01857       0.950937        1.00142        1.02055        1.01939
  9139.56        1.01646        1.01599        1.02261        1.01921        1.01935       0.949356        1.00463        1.02338        1.02135
  9142.06        1.0228        1.017        1.02334        1.02134        1.01958       0.947761        1.0068        1.02432        1.0222
  9144.57        1.02116        1.01532        1.02266        1.01857        1.01954       0.946157        1.00735        1.02409        1.02237
  9147.08        1.01965        1.01537        1.02506        1.01967        1.01901       0.944552        1.00649        1.02385        1.02255
  9149.64        1.01949        1.01478        1.02709        1.01966        1.01778       0.942916        1.00443        1.0236        1.02272
  9152.21        1.01611        1.01321        1.02786        1.01807        1.01638       0.941276        1.00213        1.02175        1.02171
  9154.79        1.0139        1.01263        1.01968        1.01655        1.01481       0.939631        1.00005        1.01882        1.01991
  9157.4        1.01295        1.01028        1.01779        1.01505        1.01235       0.937962       0.998197        1.01584        1.01809
  9160.02        1.01015        1.00465        1.02018        1.01416        1.00845       0.936288       0.996845        1.01284        1.01627
  9162.67        1.00394        1.00246        1.02023        1.01405        1.00317       0.934596       0.996293        1.00868        1.01465
  9165.34        1.00571        1.00547        1.01379        1.01498       0.997152       0.932892       0.996667        1.00364        1.01318
  9168.01        1.00158        1.00454        1.01869        1.01105       0.990467       0.931184       0.997807       0.998582        1.01171
  9170.72        1.00123        1.00066        1.00848        1.0112       0.984047       0.929455       0.998903       0.993461        1.01022
  9173.43       0.999531       0.998658        1.00649        1.00865       0.979125       0.927722       0.999737       0.991509        1.00844
  9176.17       0.998895       0.997788        1.00867        1.00725       0.977011       0.925974        1.00069       0.992021        1.00642
  9178.93       0.995425       0.997513        1.00877        1.00897       0.979107       0.924207        1.00158       0.992539        1.00437
  9181.71       0.998248       0.995735        1.00401        1.00856       0.983578       0.922434        1.00251       0.993058        1.00231
  9184.5       0.994886       0.996989        1.00605        1.00489       0.988771       0.92065        1.00337       0.994454        1.00062
  9187.32       0.996878       0.992642        1.01007        1.00639       0.993602       0.918849        1.00374       0.996587       0.999222
  9190.14       0.993597       0.996637        1.00829        1.00454       0.996339       0.917045        1.00366       0.998725       0.997819
  9193       0.997013       0.994188        1.00634        1.00417       0.996775       0.915218        1.00332        1.00089       0.9964
  9195.87       0.994371       0.994216        1.00448        1.00427       0.995837       0.913386        1.00266        1.00167       0.995783
  9198.77       0.995008       0.995245        1.00169        1.00254       0.994393       0.911534        1.00181        1.00122       0.995869
  9201.67       0.995201       0.995888        1.00453        1.00214       0.992873       0.909683        1.00093        1.00078       0.995955
  9204.59       0.99621       0.996198        1.00002        1.0039       0.991386       0.907814       0.999791        1.00034       0.996042
  9207.54       0.996833       0.996123        1.00175        1.00162       0.989703       0.905933       0.998328        1.00064       0.996009
  9210.52       0.995244       0.996449        1.00948        1.00254       0.988716       0.904029       0.996785        1.00165       0.995864
  9213.49       0.999167       0.997642        1.00456        1.00431       0.989579       0.902131       0.99541        1.00265       0.995719
  9216.5       0.997777       0.999416        1.00585        1.00526       0.992567       0.900206       0.994017        1.00367       0.995572
  9219.52       0.997712       0.999864        1.01068        1.00562       0.996955       0.89828       0.992983        1.00492       0.995575
  9222.57       0.999911        1.00118        1.0042        1.00451        1.00173       0.896329       0.992589        1.00642       0.995728
  9225.63        1.00164        1.00071        1.00849        1.00349        1.00559       0.894379       0.992522        1.00791       0.995881
  9228.71       0.999194       0.99975        1.00791        1.00348        1.00693       0.892407       0.992691        1.00942       0.996035
  9231.8        1.0012       0.999162        1.00727        1.00403        1.00557       0.890433       0.992997        1.00971       0.996397
  9234.92        1.00035        1.00338        1.00826        1.00762        1.00288       0.888442       0.99362        1.00874       0.996977
  9238.06       0.998519        1.0009        1.01386        1.00554        1.00052       0.886435       0.994576        1.00777       0.997561
  9241.21        1.00085        1.00046        1.009        1.00802       0.999161       0.884422       0.995656        1.0068       0.998147
  9244.39        1.0018        1.00185        1.00574        1.00542       0.999467       0.882393       0.996793        1.00679       0.998224
  9247.59       0.999012        1.00284        1.00926        1.00572        1.00103       0.880349       0.997933        1.00783       0.997735
  9250.79        1.00028        1.00138        1.00651        1.00492        1.003       0.878304       0.999039        1.00888       0.997245
  9254.04        1.00125        1.00049        1.00862        1.00632        1.00498       0.876231        1        1.00995       0.996749
  9257.28        1.00318        1.00309        1.00655        1.00409        1.00613       0.874156        1.00085        1.0104       0.995211
  9260.57       0.999919        1.0012        1.00824        1.00524        1.00691       0.872059        1.00161        1.01016       0.992489
  9263.85        1.00161        1.00301        1.01342        1.00627        1.00691       0.869962        1.00229        1.00992       0.989768
  9267.17        1.00227        1.00036        1.0103        1.009        1.0057       0.867841        1.0029        1.00968       0.987015
  9270.48        1.00158        1.00087        1.00847        1.01075        1.00365       0.865725        1.00326        1.0089       0.984407
  9273.83        1.00213        1.00224        1.00689        1.0094        1.00111       0.863583        1.00337        1.0075       0.98193
  9277.2       0.999443        1.00121        1.00618        1.00841       0.998489       0.861431        1.00338        1.00608       0.979441
  9280.59       0.999548        1.00208        1.00652        1.0055       0.996918       0.85927        1.00322        1.00467       0.976941
  9284       0.997694       0.996666        1.00791        1.00613       0.997231       0.857091        1.00296        1.00361       0.974506
  9287.42       0.997256       0.998876        1.00717        1.00597       0.998577       0.854905        1.00268        1.00299       0.972166
  9290.87       0.998893       0.99973        1.00786        1.00502       0.999826       0.852703        1.00235        1.00238       0.96981
  9294.33       0.99639       0.997001        1.0065        1.00361        1.00014       0.850493        1.00208        1.00176       0.967444
  9297.81       0.999891        1.00083        1.00201        1.00583        1.00038       0.848266        1.0019        1.00097       0.964997
  9301.3       0.992821       0.99624        1.00473        1.00294        1.0008       0.846036        1.00162       0.99998       0.962465
  9304.83       0.99382       0.996379        1.00081        1.00276        1.00026       0.843784        1.00131       0.998983       0.95991
  9308.36       0.995012       0.997502        1.00139        1.00371       0.999335       0.841527        1.00105       0.997982       0.957347
  9311.92       0.995469       0.995887        1.00375        1.00197       0.99816       0.839253        1.00063       0.997032       0.954775
  9315.49       0.992182       0.993691        1.00392        1.00087       0.996905       0.836975        1.0003       0.996155       0.95221
  9319.1       0.990626       0.99449        1.00152        1.00243       0.995736       0.834668        1.00004       0.995267       0.949614
  9322.71       0.993382       0.996109        1.00217        1.00118       0.995739       0.83236       0.999784       0.994378       0.947015
  9326.34       0.991146       0.993748        1.00076        1.00003       0.996344       0.830043       0.999506       0.993965       0.944424
  9330       0.993469       0.994872        1.00063       0.99936       0.996951       0.827703       0.999499       0.99419       0.941831
  9333.67       0.993955       0.995976       0.998975       0.999702       0.99777       0.825363       0.999474       0.994414       0.939238
  9337.36       0.992153       0.996166        1.00228       0.999769       0.998004       0.823002       0.999319       0.994641       0.936622
  9341.07       0.992926       0.992972        1.00117       0.999184       0.998072       0.820636       0.999151       0.994333       0.933958
  9344.81       0.993352       0.993023       0.99864       0.996026       0.997698       0.818247       0.998995       0.993272       0.931208
  9348.55       0.99112       0.992991        1.00215       0.996532       0.996535       0.815859       0.999004       0.992211       0.928458
  9352.31       0.996855       0.992581       0.993732       0.998619       0.995569       0.813456       0.998992       0.991145       0.925692
  9356.11       0.996056       0.995059       0.995092       0.997392       0.995206       0.811025       0.998919       0.990065       0.922893
  9359.9       0.994151       0.994031       0.998604       0.99624       0.995915       0.808606       0.998801       0.988992       0.920108
  9363.73       0.99789       0.994163        1.00005       0.996371       0.997288       0.806159       0.998713       0.987905       0.917291
  9367.58       0.995729       0.994659       0.994804       0.997241       0.999638       0.8037       0.99867       0.986813       0.91446
  9371.43       0.996366       0.995265        1.00034       0.99657        1.00236       0.801242       0.998562       0.985722       0.911629
  9375.32       0.994933       0.994989       0.997936       0.998709        1.00423       0.798757       0.99851       0.984619       0.908768
  9379.21       0.995059       0.995051       0.999668        1.00124        1.00547       0.796272       0.998615       0.983515       0.905908
  9383.13       0.995416       0.997047        1.00202       0.998786        1.0062       0.793766       0.998936       0.982403       0.903023
  9387.08       0.993986       0.998584        1.00215       0.998993        1.00625       0.791241       0.999124       0.981282       0.900115
  9391.03       0.995493       0.997338       0.997944        1.00015        1.00591       0.788721       0.999155       0.980163       0.897214
  9395.01       0.991707       0.995834       0.99523       0.997799        1.00564       0.786176       0.999346       0.979033       0.894285
  9399.01       0.995412       0.997062        1.00139       0.997706        1.00428       0.783625       0.999636       0.9779       0.891348
  9403       0.992092       0.997443        1.00056       0.998848        1.0031       0.781072       0.999896       0.976767       0.888408
  9407.07       0.995794       0.998372       0.997641       0.998333        1.00237       0.778477        1.00016       0.975615       0.885421
  9411.1       0.993916       0.998427        1.00181       0.998641        1.00159       0.775897        1.00019       0.974469       0.88245
  9415.17       0.994135       0.998009        1.00141       0.998299        1.0015       0.7733        1.00046       0.973316       0.87946
  9419.27       0.996927       0.999797       0.997353       0.995935        1.00147       0.770681        1.00079       0.972154       0.876446
  9423.38       0.999482       0.997152       0.994383       0.99615        1.00134       0.768055        1.00099       0.970988       0.873422
  9427.49       0.994256       0.993443       0.992873       0.99602        1.00036       0.765427        1.00131       0.969821       0.870396
  9431.66       0.993777       0.997445       0.99854       0.995482       0.999087       0.762767        1.00145       0.96864       0.867334
  9435.81       0.994286       0.998016       0.997678       0.997288       0.998215       0.760112        1.00146       0.967461       0.864277
  9439.99       0.995228       0.995614       0.992594       0.994546       0.997906       0.757444        1.00165       0.966277       0.861206
  9444.21       0.993733       0.996659       0.992024       0.998252       0.997281       0.75475        1.00153       0.96508       0.858104
  9448.44       0.993806       0.996289       0.988099       0.993884       0.997022       0.752048        1.00143       0.963881       0.854993
  9452.67       0.994057       0.996266       0.995524       0.993056       0.997269       0.749346        1.00137       0.962681       0.851883
  9456.93       0.996704       0.995555       0.995092       0.995048       0.997807       0.746625        1.00142       0.961473       0.84875
  9461.22       0.995993       0.993676       0.995598       0.996354       0.998409       0.743886        1.00135       0.960257       0.845596
  9465.51       0.992427       0.996915       0.991768       0.997522       0.999601       0.741139        1.00111       0.959038       0.842434
  9469.83       0.994927       0.997123       0.991159       0.995837        1.00045       0.738386        1.00088       0.957815       0.839264
  9474.17       0.992296       0.9958       0.994148       0.996333        1.00122       0.735609        1.00076       0.956583       0.836068
  9478.53       0.995774       0.993497       0.99816       0.997245        1.00207       0.732823        1.00047       0.955346       0.83286
  9482.9       0.992594       0.995115       0.995768       0.994078        1.00224       0.730032        1.00027       0.954106       0.829646
  9487.3       0.994677       0.994964       0.990947       0.995871        1.00205       0.727223        1.00021       0.952859       0.826413
  9491.73       0.994315       0.993865       0.990145       0.995672        1.00167       0.724396        1.00006       0.951604       0.823158
  9496.16       0.996663       0.996412       0.994056       0.993969        1.00126       0.721565       0.999828       0.950347       0.819898
  9500.59       0.995333       0.995093       0.99472       0.994871        1.00119       0.71873       0.999712       0.949089       0.816635
  9505.08       0.997851       0.994591       0.994468       0.99325        1.00113       0.715866       0.999625       0.947817       0.813337
  9509.57       0.998306       0.997686       0.991142       0.991956        1.00126       0.712999       0.999637       0.946544       0.810036
  9514.07       0.993139       0.997488       0.991696       0.993374        1.00136       0.710121       0.999834       0.945266       0.806724
  9518.6       0.998326       0.997599       0.991839       0.994209        1.00139       0.707231       0.999754       0.943983       0.803396
  9523.15        1.00102       0.997806       0.990166       0.99203        1.00134       0.70432       0.999805       0.942691       0.800045
  9527.73       0.997488       0.999804       0.991219       0.993167        1.00051       0.701397       0.999808       0.941393       0.796679
  9532.3       0.997563       0.998192       0.984724       0.990762        1.00045       0.698478       0.999792       0.940097       0.793319
  9536.91       0.998458       0.998587       0.983538       0.993642        1.00052       0.695534       0.999973       0.93879       0.789929
  9541.54        1.00206       0.999466       0.982897       0.993786        1.00058       0.692577        1.00003       0.937477       0.786525
  9546.19       0.998596       0.9985       0.988408       0.994188        1.00119       0.689606        1.00003       0.936158       0.783105
  9550.85       0.998104        1.00366       0.988815       0.99277        1.00153       0.686631        1.00024       0.934837       0.779679
  9555.52        1.00665        1.00275       0.999809       0.998034        1.00134       0.683647        1.00026       0.933512       0.776244
  9560.22        1.03176        1.02        1.02229        1.00999        1.00133       0.680645        1.0002       0.93218       0.772788
  9564.95        1.02867        1.0207        1.02269        1.00886        1.00131       0.677623        1.00024       0.930838       0.769308
  9569.68        1.00817        1.00867       0.998708       0.998632        1.00133       0.674597        1.00016       0.929494       0.765825
  9574.43        1.00873        1.00648       0.997692       0.99973        1.00176       0.671566        1.0003       0.928149       0.762335
  9579.21        1.00932        1.00649       0.996511       0.999501        1.002       0.668509        1.0004       0.926791       0.758816
  9584.02        1.00832        1.00726       0.992245        1.00045        1.00223       0.665438        1.00041       0.925428       0.755281
  9588.82        1.01182        1.00677       0.996734       0.998656        1.00226       0.662373        1.00046       0.924067       0.751751
  9593.65        1.01165        1.00729       0.995284       0.999505        1.00214       0.659288        1.00054       0.922698       0.7482
  9598.51        1.01346        1.01149        1.00012       0.999831        1.00149       0.656183        1.0005       0.921319       0.744625
  9603.39        1.01399        1.00738       0.996398        1.00319        1.00118       0.653067        1.00056       0.919936       0.741038
  9608.27        1.01548        1.00863        1.00094       0.999805        1.00098       0.649948        1.00043       0.918551       0.737447
  9613.18        1.01393        1.01121        1.00027        1.0011        1.00051       0.64681        1.00041       0.917158       0.733834
  9618.11        1.0114        1.01029       0.994992       0.997547        1.00015       0.643664        1.00055       0.915761       0.730212