File: CuXX_PAA50_and_Cu20_PAA50_NaCl-treatment_and_ISS-twin.nor
# XDI/1.0 Demeter/0.9.26
# Demeter.output_filetype: multicolumn normalized mu(E)
# Element.symbol: Cu
# Element.edge: K
# Column.1: energy eV
# Column.2: Cufoil
# Column.3: Cu20_PAMAM_m
# Column.4: Cu20_PAMAM_NaCl_30mins_m
# Column.5: Cu20_PAMAM_NaCl_60mins_m
# Column.6: Cu20_PAMAM_NaCl_90mins_m
# Column.7: Cu(OH)2_standard
# Column.8: Cu2O_standard
# Column.9: CuF2_standard
# Column.10: CuO_standard
# Column.11: FeTF_Cu5_PAMAM50_m
# Column.12: FeTF_Cu10_PAMAM50_m
# Column.13: FeTF_Cu20_PAMAM50_m
# Column.14: FeTF_Cu40_PAMAM50_m
# Column.15: Cu-ISS_twin_b17_A3_Cu10_PAA50_merge
# Column.16: Cu-ISS_twin_b17_B4_Cu20_PAA50_merge
# Column.17: Cu-C5_ISS_batch21_A3_Cu10_PAA50_merge
# Column.18: Cu-C7_ISS_batch22_B4_Cu20_PAA50_merge
#------------------------
#  energy  Cufoil  Cu20_PAMAM_m  Cu20_PAMAM_NaCl_30mins_m  Cu20_PAMAM_NaCl_60mins_m  Cu20_PAMAM_NaCl_90mins_m  Cu(OH)2_standard  Cu2O_standard  CuF2_standard  CuO_standard  FeTF_Cu5_PAMAM50_m  FeTF_Cu10_PAMAM50_m  FeTF_Cu20_PAMAM50_m  FeTF_Cu40_PAMAM50_m  ISS_twin_Cu10_PAMAM50 ISS_twin_Cu20_PAMAM50 ISS_Cu10_PAMAM50 ISS_Cu20_PAMAM50
  8948.04       0.00126981  -0.00913374  -0.00181926  -0.00209626   0.00232817   0.000612719   0.000791635   9.84064e-05  -0.00089099  -0.00112213   0.000728333   0.000510421   0.000598316   0.00355224   0.00343146   0.00392303   0.00322878
  8950.03       0.000696734  -0.00898748  -0.00151878  -0.00181452   0.0029031   0.000733467   0.000952706   0.000372581  -0.000458342  -0.00040944   0.00045454   0.000955147   0.00090314   0.00378791   0.00371327   0.00354205   0.00342277
  8952.03       0.000157328  -0.00923211  -0.000985342  -0.00207815   0.00332022   0.000814483   0.00151708   0.000421941  -0.000341349  -0.00055952   0.00110644   0.00121247   0.00132961   0.00378614   0.00420593   0.00378246   0.00382621
  8954.04      -0.000289342  -0.00901636  -0.00131304  -0.00172281   0.00420806   0.00132994   0.00205998   0.000991604   3.89205e-05  -0.000123147   0.00174496   0.00162385   0.00176299   0.00407981   0.00458126   0.00461654   0.00443169
  8956.04      -0.000663625  -0.00859674  -0.000624586  -0.000516371   0.00423402   0.00266966   0.00259534   0.00138782   0.00042712  -0.000146089   0.00206979   0.00205515   0.00234779   0.00511698   0.00553522   0.00544819   0.00504888
  8958.04      -0.000973814  -0.0079516  -0.000355419  -0.000171038   0.00500417   0.00227101   0.00335907   0.00183866   0.00113701   0.000448211   0.0028115   0.00274263   0.00279186   0.00548914   0.00600964   0.00567572   0.00588831
  8960.03      -0.00109513  -0.00724601  -1.82115e-05   0.000540346   0.0054867   0.00327497   0.00422495   0.00259649   0.00119028   0.00136325   0.003243   0.0033065   0.00362081   0.00633987   0.00676406   0.00633737   0.00671002
  8962.03      -0.00102001  -0.00733964   0.00124963   0.00106148   0.00681802   0.00424726   0.00542011   0.00324778   0.00249325   0.00181496   0.00413152   0.00414945   0.00428249   0.00650843   0.0074401   0.00721264   0.00753657
  8964.04      -0.000735845  -0.00659645   0.00237769   0.00207602   0.00792017   0.00521988   0.00673448   0.00412063   0.0022934   0.00290224   0.00532393   0.00535906   0.00565077   0.00764189   0.00857128   0.00902024   0.00838146
  8966.02      -7.81352e-05  -0.00515342   0.00319714   0.0036242   0.00934494   0.00599918   0.00831383   0.0050917   0.00429711   0.0039632   0.00651475   0.0066745   0.00707568   0.00867798   0.00996627   0.0108689   0.0102168
  8968.02       0.00114799  -0.00309095   0.00487112   0.00618241   0.0112928   0.00772878   0.0109418   0.00644305   0.00540628   0.00583894   0.00786236   0.00847094   0.00902295   0.0109203   0.0117318   0.0119757   0.0117795
  8968.5       0.00158404  -0.00364866   0.00635592   0.00655159   0.0117191   0.00782406   0.0115499   0.00706969   0.00596134   0.00576191   0.00853627   0.00899532   0.00930239   0.0109165   0.0121059   0.0125347   0.0122951
  8969       0.00203427  -0.00216847   0.00680171   0.00704547   0.0126439   0.00790193   0.0123482   0.00744036   0.00657531   0.00631124   0.00921231   0.00933718   0.010082   0.0115917   0.0122735   0.0115914   0.0129287
  8969.51       0.00258159  -0.00212821   0.00662982   0.00778913   0.0132116   0.00878732   0.013197   0.00789057   0.00701911   0.00717718   0.00940442   0.0100679   0.010776   0.0112629   0.0131122   0.012662   0.0135916
  8970.01       0.00323844  -0.000884418   0.00788126   0.00772106   0.013875   0.00905885   0.0142109   0.00843053   0.00715366   0.00729193   0.0100972   0.010686   0.0113988   0.0121487   0.0139353   0.0129516   0.014693
  8970.5       0.00402805  -0.000441411   0.00828204   0.00904562   0.014634   0.0103711   0.0152121   0.00879477   0.00748493   0.00754667   0.0109431   0.0114112   0.0122764   0.0128686   0.0146844   0.0150361   0.0153439
  8970.99       0.0049491   0.000223277   0.00918056   0.0105465   0.0160023   0.0104716   0.0164914   0.0094926   0.00856688   0.00855636   0.0115796   0.0122442   0.0132613   0.013747   0.015241   0.0154373   0.0157036
  8971.51       0.00601802   0.001212   0.00974775   0.0110898   0.0164401   0.0109956   0.0177393   0.0102035   0.0090865   0.00940254   0.0128068   0.0131575   0.0142073   0.0143458   0.0165277   0.0160371   0.0169484
  8972       0.00717011   0.00226372   0.0108908   0.0122091   0.0176837   0.0113903   0.0193958   0.0108583   0.00982434   0.0106699   0.0132469   0.0140533   0.0151301   0.0150193   0.0170048   0.0176101   0.018154
  8972.5       0.00860557   0.00252916   0.0117279   0.0143992   0.0185797   0.0120705   0.0212091   0.0113995   0.0104134   0.0112563   0.0143059   0.0150771   0.0166527   0.015802   0.017874   0.0185285   0.0194089
  8972.99       0.0103589   0.00484034   0.0124924   0.0151592   0.0198785   0.0134832   0.0231187   0.0123132   0.01155   0.0124827   0.0154321   0.0165256   0.018197   0.0168056   0.0185594   0.0195597   0.0206548
  8973.5       0.0124835   0.00570734   0.0145831   0.017008   0.0229007   0.0146456   0.0254582   0.0135806   0.0128382   0.0127088   0.0168922   0.0177728   0.0194805   0.018066   0.0196896   0.0197003   0.02192
  8973.99       0.015011   0.00749681   0.0161391   0.0189083   0.0236616   0.0145893   0.0282728   0.0146491   0.0141045   0.0135427   0.0183668   0.0192867   0.0215684   0.0197221   0.0211807   0.021321   0.0238608
  8974.49       0.0182512   0.010259   0.0182222   0.0214254   0.0269091   0.0162935   0.0316769   0.0164743   0.0155704   0.0158756   0.0195198   0.0213484   0.0237904   0.0208072   0.0235265   0.0234145   0.026185
  8974.99       0.022341   0.0121526   0.0208288   0.0256949   0.0303002   0.0178899   0.0359956   0.0193324   0.01748   0.0174781   0.0219657   0.023725   0.0265556   0.0220018   0.0252146   0.0252525   0.02896
  8975.5       0.0274411   0.0167554   0.0242558   0.0301341   0.0338634   0.0217474   0.0411415   0.0234577   0.0200399   0.0220768   0.0247303   0.0269017   0.0301215   0.0243665   0.0273767   0.0291162   0.0324453
  8975.99       0.0344071   0.018876   0.0279764   0.0346754   0.0389967   0.0252056   0.0476025   0.0274065   0.0236103   0.0232638   0.0280387   0.0301644   0.0346031   0.0278197   0.0318622   0.0330013   0.0367304
  8976.5       0.0449863   0.0253623   0.033774   0.0420643   0.0463533   0.0304279   0.0563872   0.0294802   0.0281725   0.0279298   0.0327254   0.0356572   0.0410409   0.0327868   0.0365599   0.0389771   0.0421061
  8977       0.0606845   0.0341826   0.0414967   0.0537321   0.057257   0.0331677   0.0689435   0.0281368   0.0319871   0.0337348   0.038118   0.0425515   0.0489762   0.0366383   0.0426019   0.0459865   0.049276
  8977.49       0.0874141   0.0410475   0.0515226   0.0692957   0.0735645   0.0336546   0.0876442   0.0264203   0.0334374   0.0389393   0.0455116   0.051017   0.0604616   0.0408976   0.049195   0.0504216   0.0576758
  8978.02       0.136167       0.055317   0.0674213   0.0973311   0.0989031   0.033461   0.119104       0.0255947   0.034813   0.0451921   0.0544812   0.0633967   0.0793416   0.0436108   0.0557603   0.0605066   0.0692113
  8978.5       0.207478       0.0742501   0.0897624   0.138169       0.135954       0.0351843   0.170538       0.0265082   0.0378684   0.0550303   0.0681454   0.080664   0.106556       0.0486443   0.0647477   0.0716455   0.084898
  8979       0.297948       0.102386       0.119311       0.185625       0.186215       0.0401172   0.255917       0.027807   0.0445007   0.0684262   0.0895844   0.109549       0.149882       0.0550112   0.0792984   0.0940195   0.114181
  8979.5       0.38771       0.143807       0.157384       0.240984       0.237493       0.0451778   0.384157       0.0302006   0.0536444   0.0916312   0.12095       0.148401       0.202981       0.068541   0.100673       0.127109       0.162982
  8980.01       0.451848       0.201372       0.201154       0.286419       0.28031       0.0535569   0.532833       0.0331345   0.0651695   0.124011       0.165317       0.19907       0.260589       0.0856957   0.131805       0.175713       0.235385
  8980.5       0.484265       0.263752       0.246403       0.319549       0.31257       0.0648414   0.628422       0.0367264   0.0793797   0.16769       0.218935       0.258603       0.31959       0.108515       0.169521       0.229284       0.315414
  8981       0.494783       0.319238       0.285447       0.344427       0.333125       0.0788286   0.644311       0.0410193   0.0978931   0.217797       0.279836       0.324237       0.37641       0.130259       0.206651       0.28206       0.379277
  8981.51       0.490517       0.345277       0.311363       0.354796       0.340492       0.0996311   0.594781       0.0468761   0.128162       0.254484       0.326723       0.373139       0.418851       0.148577       0.231872       0.308501       0.410737
  8982       0.479488       0.348618       0.317452       0.35596       0.341677       0.130041       0.539452       0.0539149   0.170444       0.26858       0.343079       0.390751       0.431706       0.158132       0.237608       0.31551       0.409224
  8982.5       0.469717       0.338029       0.314307       0.353167       0.33949       0.17365       0.501292       0.0623872   0.228625       0.263155       0.338762       0.385102       0.424734       0.16723       0.240126       0.311067       0.39979
  8983       0.467645       0.335398       0.316665       0.358831       0.34254       0.226185       0.4921       0.0728186   0.293886       0.263055       0.33303       0.374168       0.415404       0.177682       0.245675       0.316927       0.392854
  8983.5       0.476231       0.342041       0.324632       0.37068       0.355033       0.286029       0.501946       0.0870983   0.35717       0.266043       0.329625       0.368876       0.411785       0.197288       0.258693       0.327255       0.395913
  8984.02       0.494891       0.366251       0.34501       0.391966       0.379291       0.342123       0.525509       0.107436       0.405793       0.278049       0.338106       0.376523       0.41974       0.228701       0.285459       0.351174       0.412834
  8984.5       0.516792       0.398409       0.377913       0.422146       0.412222       0.386403       0.553376       0.133881       0.428094       0.304808       0.361174       0.395782       0.438846       0.268067       0.320033       0.387905       0.440876
  8984.99       0.538039       0.437491       0.41598       0.45987       0.446406       0.419181       0.581867       0.17054       0.43488       0.341488       0.389275       0.424953       0.465612       0.317438       0.364501       0.424097       0.473855
  8985.51       0.558506       0.478672       0.460727       0.499465       0.485155       0.442907       0.610312       0.222656       0.432208       0.389653       0.426148       0.463294       0.498188       0.37274       0.41548       0.470416       0.510374
  8986.01       0.578113       0.523959       0.498704       0.535685       0.523432       0.459654       0.63761       0.285551       0.432399       0.437636       0.47025       0.501338       0.530429       0.429076       0.466414       0.508283       0.545414
  8986.51       0.600191       0.562279       0.539212       0.575561       0.557827       0.476691       0.666943       0.360749       0.443379       0.486044       0.510791       0.536859       0.562388       0.480516       0.509508       0.546707       0.578803
  8987       0.626114       0.601101       0.569331       0.609199       0.593352       0.499881       0.698881       0.44753       0.469067       0.523895       0.546344       0.570882       0.591317       0.526398       0.551707       0.583381       0.610146
  8987.5       0.657226       0.634974       0.604294       0.648859       0.626148       0.534566       0.731517       0.541605       0.511722       0.564135       0.579381       0.602121       0.619653       0.567745       0.587629       0.618848       0.639886
  8988.01       0.693802       0.670769       0.635274       0.68306       0.660772       0.584084       0.764525       0.644289       0.56565       0.602284       0.612765       0.633929       0.651865       0.60528       0.623774       0.650261       0.676161
  8988.5       0.733591       0.704332       0.662534       0.719452       0.696671       0.63978       0.798069       0.743543       0.624716       0.636134       0.642561       0.66206       0.681951       0.640547       0.656295       0.685106       0.708035
  8989       0.7773       0.740038       0.700512       0.759825       0.733614       0.704135       0.835249       0.834756       0.687897       0.669314       0.675876       0.695691       0.711422       0.676164       0.691856       0.720126       0.740806
  8989.49       0.822353       0.780171       0.737073       0.80271       0.775669       0.775036       0.877298       0.911884       0.758455       0.704135       0.70983       0.726938       0.74797       0.715435       0.728181       0.761351       0.779693
  8990.01       0.870945       0.8221       0.78473       0.845663       0.821338       0.856176       0.924756       0.974496       0.837089       0.746463       0.743891       0.767197       0.784797       0.7655       0.778094       0.807282       0.82395
  8990.51       0.918152       0.881597       0.830557       0.898165       0.872584       0.941937       0.975012        1.02982       0.913385       0.789926       0.788407       0.809741       0.824701       0.825395       0.832562       0.871435       0.874854
  8991       0.962706       0.9339       0.887486       0.951069       0.925727        1.01965        1.02523        1.08558       0.97778       0.849053       0.835924       0.852388       0.865766       0.8911       0.89429       0.926031       0.925791
  8991.5        1.00351       0.997122       0.941064        1.00597       0.979875        1.0889        1.07183        1.15374        1.0264       0.903779       0.891468       0.902724       0.910182       0.964781       0.962034       0.987825       0.981523
  8992        1.03876        1.05       0.996423        1.06164        1.03033        1.1441        1.10401        1.2312        1.06148       0.969866       0.945369       0.953532       0.953493        1.03801        1.02737        1.02988        1.02835
  8992.51        1.06451        1.10062        1.04939        1.10077        1.06843        1.19006        1.12591        1.3156        1.09321        1.03093        1.00059        1.00094       0.994276        1.09898        1.08188        1.08292        1.06852
  8993.01        1.07876        1.13313        1.08569        1.13518        1.10147        1.2259        1.14083        1.39635        1.12282        1.08487        1.04426        1.03802        1.02568        1.15004        1.12851        1.12318        1.10074
  8993.49        1.08215        1.17118        1.10908        1.16129        1.12465        1.2545        1.15231        1.46551        1.15278        1.12368        1.07827        1.06844        1.04801        1.19352        1.16262        1.15328        1.12934
  8994        1.0758        1.1926        1.12891        1.17625        1.14134        1.28217        1.16295        1.52293        1.18528        1.15981        1.10442        1.09436        1.06577        1.22734        1.19181        1.17814        1.15444
  8994.5        1.06241        1.21577        1.14709        1.18941        1.15265        1.3115        1.17073        1.55891        1.22264        1.1915        1.1245        1.11446        1.08037        1.25573        1.21755        1.19832        1.17152
  8995.01        1.04485        1.23339        1.15518        1.19388        1.15863        1.34819        1.17129        1.57605        1.26531        1.20854        1.14634        1.13103        1.09214        1.27669        1.23885        1.21829        1.18686
  8995.5        1.02715        1.24159        1.16728        1.20018        1.16001        1.38484        1.16309        1.57691        1.30465        1.22111        1.16057        1.14136        1.10054        1.2942        1.25027        1.23308        1.19882
  8996        1.00992        1.25143        1.16609        1.19424        1.15463        1.41587        1.14604        1.56505        1.33218        1.22972        1.16848        1.1466        1.10279        1.30463        1.25897        1.23421        1.20135
  8996.51       0.994437        1.2505        1.16686        1.19475        1.15201        1.43092        1.12242        1.54313        1.34039        1.23804        1.1713        1.14948        1.1035        1.3102        1.26534        1.23836        1.20263
  8997       0.98182        1.25207        1.16774        1.18506        1.14871        1.42834        1.09812        1.5145        1.33416        1.23625        1.1712        1.14829        1.10142        1.31062        1.26349        1.23422        1.19661
  8997.51       0.972794        1.24125        1.15557        1.17558        1.14003        1.41252        1.0739        1.47988        1.31821        1.22468        1.16524        1.1443        1.09568        1.30247        1.25749        1.22557        1.18448
  8998       0.968728        1.23465        1.1508        1.16976        1.13275        1.38862        1.05292        1.44205        1.30002        1.22212        1.15845        1.13858        1.08749        1.2966        1.2474        1.2166        1.17218
  8998.5       0.970115        1.21694        1.14174        1.16404        1.1288        1.36047        1.03278        1.40188        1.27938        1.20916        1.15342        1.12754        1.08083        1.28429        1.23871        1.19931        1.15651
  8999       0.9776        1.20226        1.1305        1.15524        1.12368        1.33        1.01402        1.35964        1.25756        1.19607        1.1372        1.11808        1.07333        1.27315        1.22355        1.19053        1.13958
  8999.51       0.991043        1.18689        1.12269        1.15718        1.11684        1.2988       0.997385        1.31676        1.23085        1.18528        1.12531        1.10605        1.06659        1.25564        1.20668        1.16964        1.12495
  9000        1.00887        1.17495        1.10783        1.15377        1.11293        1.26563       0.983952        1.27811        1.19994        1.16422        1.10761        1.09315        1.05831        1.23448        1.18877        1.1557        1.11334
  9000.49        1.03067        1.15705        1.09978        1.1477        1.1116        1.23004       0.97272        1.24151        1.16472        1.15212        1.09434        1.08268        1.05243        1.21058        1.17165        1.14329        1.09717
  9001        1.05405        1.13973        1.0855        1.14385        1.11018        1.18996       0.964808        1.20717        1.12724        1.1302        1.07766        1.06892        1.04488        1.19084        1.14923        1.12268        1.08061
  9001.5        1.07494        1.12162        1.07542        1.14311        1.10574        1.16811       0.962064        1.1783        1.09688        1.10697        1.06442        1.05515        1.03832        1.16815        1.13142        1.10225        1.06605
  9002        1.09013        1.10319        1.05919        1.13431        1.09844        1.14594       0.95928        1.14901        1.06617        1.08439        1.05024        1.04265        1.03002        1.14419        1.10818        1.08379        1.0543
  9002.5        1.0966        1.08427        1.04771        1.12472        1.08918        1.12347       0.962217        1.11931        1.045        1.06152        1.03585        1.03        1.0216        1.12218        1.09131        1.07206        1.03706
  9003        1.09422        1.0738        1.03506        1.11078        1.07736        1.10114       0.965201        1.08981        1.02401        1.04717        1.02246        1.01833        1.01227        1.09845        1.07269        1.05855        1.02881
  9003.5        1.08465        1.05997        1.02275        1.09703        1.06422        1.07897       0.971041        1.06051        1.00828        1.03292        1.00918        1.00677        1.003        1.07837        1.05574        1.04508        1.0208
  9004        1.06986        1.04614        1.01044        1.08327        1.05104        1.05679       0.976882        1.03121       0.992545        1.01821       0.996609       0.996047       0.99384        1.05828        1.03883        1.03164        1.01319
  9004.49        1.05289        1.0355       0.999103        1.06795        1.03533        1.03508       0.98266        1.00252       0.978696        1.0038       0.984303       0.985548       0.984869        1.04138        1.02516        1.01847        1.00574
  9005        1.03457        1.02445       0.987211        1.05188        1.01884        1.01228       0.988729       0.972387       0.964237       0.994004       0.975103       0.979253       0.977772        1.02367        1.0108        1.01352       0.999177
  9005.51        1.01797        1.01967       0.977675        1.0388        1.00744        1.0069       0.994863       0.964799       0.954168       0.984875       0.966322       0.973382       0.970965        1.01102        1.00074        1.00879       0.992776
  9006        1.00413        1.01503       0.968402        1.02609       0.996364        1.00583        1.00086       0.961665       0.945093       0.97691       0.960806       0.968058       0.964837       0.998814       0.991022        1.00166       0.990399
  9006.5       0.992608        1.01042       0.961956        1.01575       0.98703        1.00475        1.00799       0.958463       0.940839       0.968902       0.955658       0.962676       0.958642       0.991497       0.985205       0.994271       0.988091
  9007       0.982286        1.00575       0.955553        1.00543       0.977624        1.00364        1.01561       0.955216       0.938437       0.962831       0.950913       0.958858       0.954386       0.984346       0.979688       0.991747       0.987467
  9007.51       0.97255        1.00312       0.953472        1.0006       0.971582        1.00254        1.02334       0.951992       0.939156       0.957504       0.946374       0.955713       0.950926       0.978661       0.975092       0.990228       0.987206
  9008       0.96271        1.00088       0.952141       0.996714       0.966062        1.00146        1.03109       0.948811       0.941942       0.953796       0.943703       0.953216       0.9482       0.973293       0.970707       0.988742       0.986554
  9008.49       0.952531       0.997761       0.948894       0.991898       0.961061        1.00039        1.03766       0.945653       0.945206       0.95118       0.942293       0.951168       0.945993       0.968736       0.968097       0.987271       0.985773
  9009       0.942549       0.994241       0.944772       0.98663       0.956082       0.999284        1.04255       0.942405       0.949393       0.94904       0.940278       0.949407       0.943683       0.964354       0.966005       0.985048       0.984431
  9009.51       0.934401       0.992982       0.94081       0.980999       0.951714       0.997965        1.04674       0.93937       0.953309       0.947839       0.937276       0.948233       0.941304       0.961197       0.963789       0.982321       0.982693
  9010       0.928365       0.993314       0.937073       0.975271       0.947875       0.995656        1.04674       0.939767       0.955683       0.946402       0.934727       0.947057       0.93907       0.959043       0.961545       0.979879       0.981371
  9010.5       0.924685       0.992752       0.934122       0.971442       0.944934       0.993314        1.04674       0.940171       0.958091       0.94326       0.93446       0.945587       0.937254       0.955971       0.959479       0.977762       0.980652
  9010.99       0.923071       0.990637       0.932619       0.9711       0.943418       0.991004        1.045       0.940568       0.958164       0.940161       0.934198       0.944137       0.935462       0.951503       0.957817       0.975535       0.97992
  9011.51       0.923176       0.988193       0.931233       0.970824       0.942122       0.988613        1.04287       0.94098       0.95783       0.937427       0.933178       0.943034       0.934948       0.947097       0.955787       0.972158       0.978998
  9012       0.924557       0.984333       0.930827       0.970964       0.942227       0.986286        1.0414       0.941381       0.956682       0.934841       0.932059       0.942023       0.934659       0.944093       0.951802       0.968874       0.978101
  9012.51       0.92681       0.980418       0.930415       0.971107       0.942332       0.983927        1.04038       0.941787       0.954876       0.932876       0.930254       0.940391       0.934346       0.941046       0.94776       0.963693       0.975105
  9013.01       0.929566       0.979191       0.929724       0.971606       0.942556       0.981583        1.03929       0.942191       0.952876       0.931409       0.927978       0.938346       0.934018       0.940376       0.944805       0.958311       0.971789
  9013.5       0.932811       0.978334       0.928997       0.972153       0.942797       0.979256        1.03797       0.942592       0.950178       0.929572       0.926113       0.936289       0.933442       0.940137       0.942042       0.956287       0.968701
  9014.01       0.936634       0.975763       0.927363       0.973525       0.943217       0.976896        1.03662       0.942998       0.947441       0.92623       0.925752       0.934107       0.931924       0.937633       0.938909       0.95652       0.965725
  9014.51       0.941293       0.971873       0.924974       0.975549       0.943766       0.970453        1.03217       0.939302       0.944541       0.922865       0.92539       0.931909       0.930395       0.933238       0.935487       0.955472       0.962735
  9015.01       0.946822       0.968328       0.922763       0.976967       0.943866       0.963323        1.02722       0.935066       0.941694       0.919573       0.923535       0.930469       0.930505       0.92877       0.932242       0.950149       0.959857
  9015.5       0.953223       0.965645       0.92101       0.976239       0.942526       0.95614        1.02059       0.9308       0.93831       0.916254       0.921375       0.929159       0.930893       0.923576       0.929298       0.944787       0.956959
  9016       0.960474       0.963       0.919282       0.975522       0.941204       0.949058        1.01163       0.926593       0.934185       0.912717       0.918141       0.927549       0.930719       0.918454       0.926395       0.94185       0.953213
  9016.5       0.968587       0.959796       0.918203       0.975823       0.943962       0.941824        1.00248       0.922296       0.929971       0.908605       0.912928       0.925393       0.929551       0.914514       0.922653       0.939383       0.949185
  9017       0.977222       0.956451       0.917292       0.976348       0.947622       0.934538       0.992993       0.917968       0.923353       0.904465       0.907679       0.923221       0.928376       0.910877       0.918676       0.936205       0.944472
  9017.51       0.985945       0.952726       0.916913       0.97782       0.95021       0.927201       0.983419       0.91361       0.916406       0.899927       0.905575       0.921238       0.929352       0.907872       0.914978       0.93201       0.938671
  9018.01       0.994848       0.948539       0.917358       0.980782       0.951076       0.920014       0.975191       0.909341       0.908587       0.895448       0.903744       0.91931       0.930464       0.906012       0.911845       0.927901       0.932989
  9020.01        1.02943       0.935795       0.90645       0.986307       0.957932       0.893866       0.952827       0.892926       0.869815       0.882079       0.891785       0.908523       0.928946       0.887098       0.895187       0.907317       0.918193
  9022.01        1.06083       0.922474       0.904756       0.990736       0.96299       0.870948       0.937828       0.87737       0.836116       0.872976       0.884323       0.904088       0.929358       0.872186       0.883726       0.896105       0.907644
  9024.02        1.08594       0.920258       0.900956        1.00347       0.969765       0.848019       0.927552       0.861807       0.816266       0.865529       0.879714       0.898888       0.930552       0.867643       0.877141       0.891036       0.898562
  9026.02        1.08782       0.912026       0.898657       0.999435       0.972745       0.854355       0.922136       0.875678       0.808528       0.863756       0.875419       0.893575       0.928611       0.866977       0.87645       0.889889       0.897816
  9028.01        1.06181       0.920991       0.904299       0.997581       0.968226       0.866591       0.919976       0.895532       0.816132       0.86838       0.875963       0.895994       0.92484       0.875346       0.880318       0.894722       0.900184
  9030.01        1.02495       0.930351       0.903035       0.985234       0.958781       0.879412       0.922473       0.915921       0.837558       0.877956       0.883834       0.899436       0.922234       0.890395       0.892729       0.897087       0.904444
  9032.02       0.991724       0.938103       0.906238       0.984449       0.953256       0.91168       0.933309       0.945514       0.867532       0.89286       0.894959       0.90416       0.923008       0.907468       0.906947       0.918063       0.919215
  9034.01       0.971841       0.953428       0.922431       0.987152       0.957626       0.943569       0.948253       0.974758       0.899829       0.91132       0.905532       0.913994       0.925085       0.929652       0.927842       0.9359       0.932561
  9036.02       0.964357       0.968218       0.935008       0.997037       0.964689       0.97501       0.963769        1.00302       0.933482       0.930152       0.92111       0.928862       0.932508       0.951361       0.948329       0.95424       0.951409
  9038.02       0.967432       0.987318       0.951426        1.01064       0.979174        1.00034       0.978875        1.01885       0.967104       0.946006       0.938063       0.940736       0.943844       0.970683       0.965102       0.97578       0.969186
  9040.02       0.976827        1.00409       0.969563        1.02091       0.991021        1.02569       0.9952        1.03468       0.997058       0.966446       0.95311       0.955493       0.954112       0.992466       0.985382       0.991809       0.984417
  9042.02       0.983328        1.01713       0.979054        1.03202        1.00332        1.05104        1.01345        1.05058        1.0192       0.982375       0.96752       0.968661       0.965758        1.00772        1.00105        1.00436       0.99637
  9044.01       0.981066        1.03029       0.990468        1.03769        1.00774        1.06115        1.02835        1.0535        1.03497       0.99426       0.976781       0.98063       0.974149        1.02068        1.01188        1.01865        1.00748
  9046.02       0.979244        1.04157       0.997635        1.0451        1.01444        1.07131        1.03496        1.05644        1.0502        1.00271       0.98891       0.988625       0.982968        1.02997        1.02282        1.02811        1.01684